Folder: OTSunSuppMat/output2

Note: README.md
# OTSunSuppMat
Supplemenary material for publication

File: Th_spectral_efficiency_Glass_BK7_Ag_45.0_P_300.0_400.0_50000_rays.txt
# #wavelength(nm) efficiency_Th_absorbed
300 0.020960
302 0.020246
304 0.018955
306 0.017474
308 0.016908
310 0.016580
312 0.017304
314 0.019696
316 0.022569
318 0.028871
320 0.039965
322 0.073266
324 0.126423
326 0.192529
328 0.274299
330 0.373655
332 0.404460
334 0.435142
336 0.469456
338 0.501852
340 0.534058
342 0.544512
344 0.556976
346 0.569922
348 0.582928
350 0.592386
352 0.598761
354 0.605925
356 0.610562
358 0.617121
360 0.620638
362 0.628160
364 0.632570
366 0.634055
368 0.638223
370 0.639350
372 0.644029
374 0.645473
376 0.646138
378 0.646818
380 0.650492
382 0.650251
384 0.654727
386 0.653229
388 0.657305
390 0.658084
392 0.659191
394 0.661511
396 0.660007
398 0.663574
400 0.662610

File: Th_spectral_efficiency_Glass_BK7_Ag_45.0_S_300.0_400.0_50000_rays.txt
# #wavelength(nm) efficiency_Th_absorbed
300 0.093816
302 0.093582
304 0.094688
306 0.093903
308 0.092611
310 0.091779
312 0.095965
314 0.105019
316 0.119730
318 0.141434
320 0.178216
322 0.225781
324 0.280137
326 0.333237
328 0.397618
330 0.467828
332 0.488483
334 0.513118
336 0.532243
338 0.555766
340 0.577538
342 0.586893
344 0.594684
346 0.603772
348 0.612426
350 0.623215
352 0.627490
354 0.633033
356 0.636668
358 0.641365
360 0.643435
362 0.647083
364 0.649404
366 0.654182
368 0.657226
370 0.659679
372 0.659682
374 0.659255
376 0.663664
378 0.659506
380 0.663815
382 0.667393
384 0.667585
386 0.666275
388 0.669130
390 0.669780
392 0.670659
394 0.671900
396 0.673962
398 0.672860
400 0.674872

File: Th_spectral_efficiency_Glass_BK7_Ag_80.0_P_300.0_400.0_50000_rays.txt
# #wavelength(nm) efficiency_Th_absorbed
300 0.041798
302 0.041748
304 0.040981
306 0.041304
308 0.041417
310 0.041515
312 0.040618
314 0.041311
316 0.043165
318 0.046486
320 0.053516
322 0.059869
324 0.068227
326 0.078593
328 0.091292
330 0.107697
332 0.111559
334 0.117903
336 0.122333
338 0.128397
340 0.133992
342 0.136460
344 0.139254
346 0.141584
348 0.144469
350 0.147049
352 0.148711
354 0.149880
356 0.150697
358 0.151788
360 0.153449
362 0.154662
364 0.155407
366 0.155653
368 0.156528
370 0.156702
372 0.156756
374 0.158168
376 0.158507
378 0.158692
380 0.159454
382 0.159917
384 0.160258
386 0.160450
388 0.161556
390 0.160821
392 0.162024
394 0.161589
396 0.162133
398 0.162551
400 0.162387

File: Th_spectral_efficiency_Glass_BK7_Ag_80.0_S_300.0_400.0_50000_rays.txt
# #wavelength(nm) efficiency_Th_absorbed
300 0.097973
302 0.098679
304 0.099526
306 0.098971
308 0.098127
310 0.097733
312 0.099314
314 0.100444
316 0.101649
318 0.105092
320 0.110547
322 0.113591
324 0.117224
326 0.121972
328 0.127664
330 0.135910
332 0.137968
334 0.141275
336 0.143769
338 0.145877
340 0.149824
342 0.151742
344 0.152852
346 0.154228
348 0.155907
350 0.157061
352 0.158025
354 0.158768
356 0.159389
358 0.160380
360 0.161829
362 0.161584
364 0.162876
366 0.162785
368 0.163709
370 0.163292
372 0.164625
374 0.164303
376 0.164888
378 0.164660
380 0.165103
382 0.165245
384 0.165534
386 0.165843
388 0.166070
390 0.166568
392 0.166381
394 0.166554
396 0.165967
398 0.167790
400 0.167593

File: Th_spectral_efficiency_Glass_BK7_Ag_300_400_45_P.txt
# #wavelength(nm) efficiency_Th_absorbed
300 0.020147
302 0.019870
304 0.019470
306 0.018024
308 0.017471
310 0.015485
312 0.018203
314 0.019935
316 0.023147
318 0.029326
320 0.039267
322 0.075686
324 0.124288
326 0.192261
328 0.275954
330 0.373427
332 0.404227
334 0.441381
336 0.466878
338 0.500716
340 0.533766
342 0.547101
344 0.556799
346 0.570157
348 0.581037
350 0.593949
352 0.602300
354 0.605145
356 0.611845
358 0.616613
360 0.622540
362 0.627151
364 0.631473
366 0.634122
368 0.637261
370 0.640513
372 0.642375
374 0.643605
376 0.646390
378 0.649389
380 0.649643
382 0.655375
384 0.653720
386 0.653587
388 0.660067
390 0.656620
392 0.662211
394 0.662914
396 0.662870
398 0.662312
400 0.664912

File: Th_spectral_efficiency_Glass_BK7_Ag_300_400_45_S.txt
# #wavelength(nm) efficiency_Th_absorbed
300 0.093914
302 0.092906
304 0.094973
306 0.092897
308 0.093838
310 0.091542
312 0.096728
314 0.104702
316 0.120082
318 0.141372
320 0.177784
322 0.227244
324 0.279091
326 0.336270
328 0.399719
330 0.469302
332 0.489296
334 0.514167
336 0.533437
338 0.553895
340 0.574878
342 0.585222
344 0.595609
346 0.604504
348 0.614815
350 0.624358
352 0.625942
354 0.630703
356 0.636102
358 0.638859
360 0.646822
362 0.645485
364 0.651810
366 0.652175
368 0.656604
370 0.656183
372 0.658655
374 0.660974
376 0.662184
378 0.663396
380 0.663767
382 0.665915
384 0.666562
386 0.668013
388 0.670846
390 0.670723
392 0.673002
394 0.673983
396 0.673009
398 0.674544
400 0.674835

File: Th_spectral_efficiency_Glass_BK7_Ag_300_400_80_P.txt
# #wavelength(nm) efficiency_Th_absorbed
300 0.041628
302 0.041203
304 0.041342
306 0.040745
308 0.041044
310 0.041251
312 0.041475
314 0.042002
316 0.043437
318 0.046432
320 0.053425
322 0.059953
324 0.068248
326 0.078577
328 0.091137
330 0.108361
332 0.112339
334 0.117114
336 0.123100
338 0.127914
340 0.133660
342 0.136427
344 0.138082
346 0.141238
348 0.144155
350 0.146851
352 0.148367
354 0.149073
356 0.150866
358 0.151726
360 0.151919
362 0.154091
364 0.154626
366 0.155301
368 0.156696
370 0.156662
372 0.158104
374 0.158210
376 0.158489
378 0.159327
380 0.159245
382 0.159720
384 0.160054
386 0.160015
388 0.161108
390 0.161025
392 0.161552
394 0.161424
396 0.161235
398 0.161474
400 0.162649

File: Th_spectral_efficiency_Glass_BK7_Ag_300_400_80_S.txt
# #wavelength(nm) efficiency_Th_absorbed
300 0.097850
302 0.097894
304 0.098976
306 0.098346
308 0.098193
310 0.098514
312 0.099227
314 0.100297
316 0.101240
318 0.104887
320 0.109721
322 0.113744
324 0.116888
326 0.121913
328 0.127920
330 0.134934
332 0.137287
334 0.141418
336 0.143728
338 0.145501
340 0.149306
342 0.151170
344 0.151967
346 0.154202
348 0.155501
350 0.157202
352 0.158564
354 0.159289
356 0.159755
358 0.160475
360 0.161382
362 0.161254
364 0.163261
366 0.162926
368 0.162950
370 0.164609
372 0.163859
374 0.164318
376 0.164020
378 0.165161
380 0.164680
382 0.165867
384 0.165596
386 0.166434
388 0.165863
390 0.166863
392 0.166154
394 0.166381
396 0.167295
398 0.166911
400 0.166509

File: Th_spectral_efficiency_Glass_BK7_Ag_420_1000_45_P.txt
# #wavelength(nm) efficiency_Th_absorbed
420 0.671901
440 0.677473
460 0.681283
480 0.681895
500 0.684971
520 0.686662
540 0.687153
560 0.689536
580 0.690718
600 0.690193
620 0.690898
640 0.690680
660 0.692712
680 0.692779
700 0.694815
720 0.693590
740 0.692098
760 0.693706
780 0.695062
800 0.695188
820 0.696763
840 0.694065
860 0.697136
880 0.693861
900 0.693828
920 0.691766
940 0.696860
960 0.694844
980 0.695338
1000 0.694928

File: Th_spectral_efficiency_Glass_BK7_Ag_420_1000_45_S.txt
# #wavelength(nm) efficiency_Th_absorbed
420 0.679256
440 0.683598
460 0.686069
480 0.687398
500 0.690773
520 0.693399
540 0.692700
560 0.693090
580 0.692265
600 0.694110
620 0.695731
640 0.693288
660 0.695422
680 0.694695
700 0.696860
720 0.696226
740 0.697302
760 0.693895
780 0.695985
800 0.695144
820 0.695237
840 0.696080
860 0.697604
880 0.696026
900 0.696499
920 0.697892
940 0.696281
960 0.699571
980 0.697694
1000 0.698265

File: Th_spectral_efficiency_Glass_BK7_Ag_420_1000_80_P.txt
# #wavelength(nm) efficiency_Th_absorbed
420 0.164014
440 0.165037
460 0.165986
480 0.166397
500 0.167200
520 0.168010
540 0.168026
560 0.168196
580 0.168219
600 0.168919
620 0.168955
640 0.168991
660 0.169032
680 0.169009
700 0.169253
720 0.169227
740 0.170370
760 0.169184
780 0.170355
800 0.170798
820 0.170251
840 0.170096
860 0.169454
880 0.170025
900 0.170104
920 0.170421
940 0.170035
960 0.170010
980 0.170911
1000 0.170810

File: Th_spectral_efficiency_Glass_BK7_Ag_420_1000_80_S.txt
# #wavelength(nm) efficiency_Th_absorbed
420 0.167843
440 0.168317
460 0.169130
480 0.170037
500 0.169356
520 0.170574
540 0.170342
560 0.170856
580 0.170973
600 0.170535
620 0.171509
640 0.171235
660 0.171098
680 0.171136
700 0.171702
720 0.171705
740 0.171066
760 0.171046
780 0.171001
800 0.171477
820 0.171905
840 0.171103
860 0.171471
880 0.171427
900 0.171684
920 0.171142
940 0.171999
960 0.171750
980 0.171420
1000 0.172015